t / s;I / A
0.009000;0.004080
0.047000;0.004860
0.085000;0.004080
0.124000;0.004080
0.162000;0.002490
0.200000;0.001695
0.238000;0.001695
0.276000;0.001695
0.314000;0.002490
0.352000;0.002490
0.390000;0.000120
0.429000;0.001695
0.467000;0.000120
0.505000;0.001695
0.543000;0.001695
0.581000;0.000120
0.619000;0.000675
0.657000;0.001695
0.695000;0.000675
0.733000;0.000900
0.771000;0.000900
0.809000;0.000675
0.847000;0.000900
0.885000;0.000675
0.923000;0.000675
0.961000;0.000675
0.999000;0.000120
1.037000;0.000120
1.075000;0.000675
1.113000;0.000120
1.151000;0.000675
1.189000;0.000675
1.228000;0.001470
1.266000;0.000675
1.304000;0.000675
1.342000;0.001470
1.380000;0.001470
1.418000;0.001470
1.456000;0.000675
1.494000;0.000675
1.532000;0.000675
1.570000;0.000675
1.608000;0.001470
1.646000;0.001470
1.684000;0.001470
1.722000;0.000675
1.760000;0.001470
1.799000;0.001470
1.837000;0.001470
1.875000;0.000675
1.913000;0.001470
1.951000;0.002265
1.989000;0.001470
2.027000;0.002265
2.065000;0.001470
2.103000;0.002265
2.141000;0.002265
2.179000;0.001470
2.217000;0.002265
2.255000;0.003060
2.293000;0.001470
2.332000;0.000120
2.370000;0.000120
2.407000;0.000675
2.446000;0.000675
2.484000;0.000900
2.522000;0.000675
2.560000;0.000120
2.598000;0.000900
2.636000;0.000675
2.674000;0.000675
2.712000;0.000120
2.750000;0.000675
2.788000;0.000120
2.826000;0.001470
2.864000;0.000675
2.902000;0.001470
2.940000;0.000675
2.978000;0.002265
3.016000;0.000675
3.055000;0.001470
3.093000;0.001470
3.131000;0.002265
3.169000;0.002265
3.207000;0.000675
3.245000;0.002265
3.283000;0.002265
3.321000;0.000675
3.359000;0.001470
3.397000;0.001470
3.435000;0.001470
3.473000;0.001470
3.511000;0.000675
3.549000;0.001470
3.587000;0.000675
3.626000;0.000675
3.664000;0.002265
3.702000;0.002265
3.740000;0.000675
3.778000;0.000675
3.816000;0.002265
3.854000;0.002265
3.892000;0.001470
3.930000;0.002265
3.968000;0.001470
4.006000;0.001470
4.044000;0.002265
4.082000;0.000675
4.120000;0.001470
4.158000;0.003060
4.196000;0.001470
4.235000;0.003060
4.273000;0.001470
4.311000;0.000675
4.349000;0.001470
4.387000;0.000675
4.425000;0.001470
4.463000;0.000675
4.501000;0.001470
4.539000;0.000675
4.577000;0.001470
4.615000;0.000900
4.653000;0.000675
4.691000;0.000675
4.729000;0.000675
4.767000;0.000675
4.805000;0.000675
4.844000;0.001470
4.882000;0.003840
4.920000;0.002265
4.958000;0.003060
4.996000;0.002265
5.034000;0.002265
5.072000;0.002265
5.110000;0.002265
5.148000;0.003060
5.186000;0.002265
5.225000;0.003060
5.263000;0.002265
5.301000;0.003060
5.339000;0.003060
5.377000;0.003840
5.415000;0.003060
5.453000;0.000675
5.491000;0.002265
5.529000;0.003060
5.567000;0.002265
5.605000;0.002265
5.643000;0.002265
5.681000;0.002265
5.719000;0.001470
5.757000;0.000675
5.795000;0.001470
5.834000;0.001470
5.872000;0.002265
5.909000;0.001470
5.948000;0.002265
5.986000;0.002265
6.024000;0.001470
6.062000;0.001470
6.100000;0.002265
6.138000;0.001470
6.176000;0.001470
6.214000;0.002265
6.253000;0.003060
6.291000;0.003060
6.329000;0.003840
6.367000;0.003060
6.405000;0.001470
6.443000;0.002265
6.481000;0.001470
6.520000;0.002265
6.558000;0.002265
6.596000;0.002265
6.634000;0.001470
6.672000;0.001470
6.710000;0.001470
6.748000;0.002265
6.786000;0.001470
6.824000;0.002265
6.863000;0.000675
6.901000;0.002265
6.939000;0.002265
6.977000;0.001470
7.015000;0.001470
7.053000;0.000675
7.091000;0.000900
7.129000;0.001470
7.167000;0.002265
7.205000;0.002265
7.243000;0.002265
7.281000;0.001470
7.320000;0.002265
7.358000;0.001470
7.396000;0.001470
7.434000;0.002265
7.472000;0.000675
7.510000;0.002265
7.548000;0.000675
7.586000;0.002265
7.624000;0.001470
7.662000;0.001470
7.700000;0.002265
7.738000;0.003060
7.776000;0.003060
7.815000;0.001470
7.853000;0.003060
7.891000;0.001470
7.929000;0.002265
7.967000;0.001470
8.005000;0.002265
8.043000;0.000675
8.083000;0.000675
8.121000;0.000120
8.159000;0.000675
8.197000;0.000675
8.235000;0.002265
8.273000;0.002265
8.311000;0.001470
8.349000;0.001470
8.387000;0.002265
8.426000;0.001470
8.464000;0.001470
8.502000;0.001470
8.540000;0.002265
8.578000;0.002265
8.616000;0.002265
8.654000;0.003060
8.694000;0.001470
8.732000;0.001470
8.770000;0.002265
8.808000;0.001470
8.846000;0.002265
8.884000;0.002265
8.923000;0.003060
8.961000;0.002265
8.999000;0.002265
9.037000;0.003060
9.075000;0.003060
9.113000;0.001470
9.151000;0.003060
9.189000;0.003060
9.227000;0.003060
9.265000;0.001470
9.305000;0.002265
9.343000;0.001470
9.381000;0.001470
9.419000;0.002265
9.457000;0.003060
9.495000;0.002265
9.533000;0.001470
9.571000;0.003060
9.609000;0.003060
9.647000;0.002265
9.685000;0.002265
9.724000;0.003060
9.762000;0.000675
9.800000;0.001470
9.838000;0.001470
9.876000;0.001470
9.914000;0.000675
9.952000;0.002265
9.990000;0.001470
10.028000;0.001470
10.066000;0.002265
10.104000;0.002265
10.142000;0.002265
10.180000;0.002265
10.218000;0.001470
10.256000;0.001470
10.294000;0.001470
10.332000;0.002265
10.370000;0.002265
10.408000;0.002265
10.446000;0.002265
10.484000;0.001470
10.523000;0.002265
10.561000;0.002265
10.599000;0.003060
10.637000;0.000675
10.675000;0.000120
10.713000;0.000675
10.751000;0.002265
10.789000;0.001470
10.827000;0.002265
10.865000;0.002265
10.903000;0.002265
10.941000;0.000675
10.979000;0.003060
11.017000;0.002265
11.055000;0.000675
11.093000;0.001470
11.131000;0.002265
11.170000;0.001470
11.208000;0.001470
11.245000;0.001470
11.284000;0.001470
11.322000;0.001470
11.360000;0.002265
11.398000;0.001470
11.436000;0.001470
11.474000;0.000675
11.512000;0.000120
11.550000;0.002265
11.588000;0.000675
11.626000;0.002265
11.664000;0.002265
11.702000;0.001470
11.740000;0.002265
11.778000;0.001470
11.816000;0.001470
11.855000;0.001470
11.893000;0.000675
11.931000;0.003060
11.969000;0.002265
12.007000;0.003060
12.045000;0.000675
12.083000;0.000675
12.121000;0.001470
12.159000;0.002265
12.197000;0.001470
12.235000;0.001470
12.273000;0.002265
12.311000;0.001470
12.349000;0.001470
12.387000;0.003060
12.426000;0.003840
12.464000;0.003060
12.502000;0.003060
12.540000;0.004635
12.578000;0.003060
12.616000;0.002265
12.654000;0.003060
12.692000;0.002265
12.730000;0.001470
12.768000;0.002265
12.806000;0.003060
12.844000;0.001470
12.882000;0.002265
12.920000;0.003060
12.958000;0.003060
12.996000;0.002265
13.034000;0.001470
13.073000;0.001470
13.111000;0.000675
13.149000;0.001470
13.187000;0.001470
13.225000;0.002265
13.263000;0.001470
13.301000;0.001470
13.339000;0.002265
13.377000;0.003060
13.415000;0.002265
13.453000;0.002265
13.491000;0.003060
13.529000;0.002265
13.567000;0.001470
13.605000;0.003060
13.643000;0.003060
13.681000;0.003060
13.720000;0.003060
13.758000;0.003840
13.796000;0.002265
13.834000;0.002265
13.872000;0.002265
13.910000;0.002265
13.948000;0.003060
13.986000;0.003060
14.024000;0.003060
14.062000;0.000675
14.100000;0.002265
14.138000;0.002265
14.176000;0.001470
14.214000;0.002265
14.252000;0.003840
14.290000;0.003060
14.328000;0.002265
14.366000;0.003060
14.404000;0.007020
14.443000;1.732421
14.481000;9.873013
14.519000;10.692928
14.557000;10.191466
14.595000;9.866668
14.633000;9.708229
14.671000;9.639306
14.709000;9.644856
14.747000;9.662285
14.785000;9.676550
14.823000;9.648021
14.861000;9.627427
14.899000;9.640896
14.937000;9.653571
14.975000;9.650406
15.014000;9.655941
15.052000;9.678125
15.090000;9.706639
15.128000;9.741497
15.166000;9.772396
15.204000;9.809625
15.242000;9.845279
15.280000;9.875383
15.318000;9.907856
15.356000;9.940345
15.394000;9.961734
15.433000;9.979959
15.471000;9.987878
15.509000;9.984714
15.547000;9.983124
15.585000;9.979959
15.623000;9.979164
15.661000;9.976779
15.699000;9.976779
15.737000;9.978369
15.775000;9.979164
15.813000;9.979164
15.851000;9.979959
15.889000;9.979164
15.927000;9.977574
15.965000;9.978369
16.003000;9.979164
16.041000;9.979959
16.079000;9.979959
16.118000;9.978369
16.156000;9.977574
16.194000;9.978369
16.232000;9.978369
16.270000;9.978369
16.308000;9.978369
16.346000;9.977574
16.384000;9.978369
16.422000;9.979959
16.460000;9.979959
16.498000;9.979164
16.536000;9.979164
16.574000;9.978369
16.612000;9.979164
16.650000;9.978369
16.688000;9.979959
16.727000;9.979959
16.765000;9.979164
16.803000;9.980739
16.841000;9.979959
16.879000;9.979164
16.917000;9.979959
16.955000;9.979164
16.993000;9.979959
17.031000;9.979164
17.069000;9.979164
17.107000;9.978369
17.145000;9.979164
17.183000;9.978369
17.221000;9.979164
17.259000;9.979164
17.297000;9.980739
17.335000;9.979164
17.373000;9.978369
17.411000;9.978369
17.449000;9.979164
17.488000;9.975999
17.526000;9.979959
17.564000;9.981534
17.602000;9.978369
17.640000;9.979959
17.678000;9.980739
17.716000;9.978369
17.754000;9.979959
17.792000;9.978369
17.830000;9.979959
17.868000;9.979164
17.906000;9.979164
17.944000;9.978369
17.982000;9.979959
18.020000;9.979164
18.058000;9.978369
18.096000;9.979164
18.135000;9.979164
18.173000;9.979164
18.211000;9.981534
18.249000;9.979164
18.287000;9.978369
18.325000;9.979164
18.363000;9.980739
18.401000;9.979164
18.439000;9.979164
18.477000;9.979959
18.516000;9.978369
18.554000;9.978369
18.592000;9.980739
18.630000;9.979959
18.668000;9.979164
18.706000;9.979959
18.744000;9.979959
18.782000;9.978369
18.820000;9.977574
18.858000;9.978369
18.896000;9.977574
18.934000;9.977574
18.972000;9.978369
19.010000;9.978369
19.048000;9.977574
19.086000;9.978369
19.124000;9.976779
19.162000;9.979164
19.201000;9.979164
19.239000;9.979959
19.277000;9.978369
19.315000;9.979959
19.353000;9.979959
19.391000;9.979959
19.429000;7.328476
19.467000;9.956410
19.505000;10.054641
19.543000;10.056231
19.581000;10.045146
19.619000;10.026127
19.657000;10.005533
19.697000;9.990473
19.735000;9.983349
19.773000;9.980979
19.812000;9.982554
19.850000;9.986513
19.888000;9.987308
19.926000;9.988103
19.964000;9.987308
20.002000;9.986513
20.040000;9.987308
20.078000;9.985734
20.116000;9.985734
20.154000;9.986513
20.192000;9.986513
20.230000;9.984939
20.268000;9.986513
20.307000;9.988898
20.345000;9.987308
20.383000;9.986513
20.421000;9.986513
20.459000;9.987308
20.497000;9.988103
20.535000;9.986513
20.573000;9.988103
20.611000;9.986513
20.649000;9.984144
20.687000;9.988103
20.725000;9.988103
20.764000;9.986513
20.802000;9.987308
20.840000;9.985734
20.878000;9.986513
20.916000;9.988898
20.954000;9.986513
20.992000;9.984939
21.030000;9.988103
21.068000;9.986513
21.106000;9.988898
21.144000;9.986513
21.182000;9.986513
21.220000;9.988103
21.258000;9.986513
21.296000;9.985734
21.334000;9.987308
21.372000;9.988103
21.411000;9.985734
21.449000;9.986513
21.487000;9.985734
21.525000;9.986513
21.564000;9.988103
21.602000;9.986513
21.640000;9.986513
21.678000;9.986513
21.716000;9.988103
21.754000;9.986513
21.792000;9.984939
21.830000;9.984144
21.868000;9.984939
21.907000;9.986513
21.945000;9.987308
21.984000;9.988103
22.022000;9.986513
22.060000;9.987308
22.098000;9.988898
22.136000;9.988103
22.174000;9.987308
22.212000;9.988103
22.250000;9.987308
22.288000;9.987308
22.326000;9.986513
22.364000;9.989693
22.402000;9.988103
22.440000;9.988898
22.478000;9.991268
22.516000;9.987308
22.555000;9.988103
22.593000;9.988898
22.631000;9.988103
22.669000;9.986513
22.707000;9.986513
22.745000;9.984939
22.783000;9.986513
22.821000;9.986513
22.859000;9.986513
22.897000;9.987308
22.935000;9.984939
22.973000;9.984939
23.011000;9.987308
23.049000;9.987308
23.087000;9.986513
23.125000;9.988103
23.164000;9.985734
23.202000;9.985734
23.240000;9.988103
23.278000;9.986513
23.316000;9.985734
23.354000;9.986513
23.392000;9.986513
23.430000;9.987308
23.468000;9.985734
23.507000;9.984144
23.545000;9.986513
23.583000;9.986513
23.621000;9.987308
23.659000;9.987308
23.697000;9.986513
23.735000;9.987308
23.773000;9.987308
23.812000;9.988103
23.850000;9.990473
23.888000;9.988103
23.926000;9.988898
23.964000;9.988103
24.002000;9.987308
24.040000;9.988898
24.078000;9.988103
24.116000;9.986513
24.154000;9.986513
24.192000;9.986513
24.230000;9.986513
24.268000;9.988103
24.307000;9.988898
24.345000;9.987308
24.383000;9.988103
24.421000;9.987308
24.459000;9.987308
24.497000;9.945325
24.535000;16.287407
24.573000;20.252347
24.611000;20.123216
24.649000;20.065379
24.687000;20.030520
24.725000;20.002006
24.764000;19.973492
24.802000;19.959227
24.840000;19.954473
24.878000;19.956063
24.916000;19.957638
24.954000;19.960022
24.992000;19.962392
25.030000;19.963982
25.068000;19.964777
25.106000;19.963187
25.144000;19.962392
25.182000;19.964777
25.220000;19.963187
25.258000;19.962392
25.296000;19.963187
25.334000;19.960817
25.372000;19.962392
25.411000;19.960817
25.449000;19.963187
25.487000;19.962392
25.525000;19.961597
25.563000;19.961597
25.601000;19.961597
25.639000;19.962392
25.677000;19.963982
25.716000;19.963982
25.754000;19.962392
25.792000;19.963982
25.830000;19.962392
25.868000;19.962392
25.906000;19.963982
25.944000;19.963187
25.982000;19.962392
26.020000;19.960817
26.058000;19.961597
26.096000;19.961597
26.134000;19.960022
26.172000;19.960817
26.210000;19.961597
26.248000;19.963187
26.286000;19.963187
26.325000;19.962392
26.363000;19.962392
26.401000;19.963187
26.439000;19.962392
26.477000;19.962392
26.515000;19.960022
26.554000;19.961597
26.592000;19.961597
26.630000;19.965572
26.668000;19.963982
26.706000;19.961597
26.744000;19.962392
26.782000;19.963982
26.820000;19.962392
26.858000;19.965572
26.896000;19.963187
26.934000;19.963187
26.972000;19.960817
27.011000;19.960817
27.048000;19.961597
27.086000;19.963187
27.124000;19.963982
27.163000;19.963187
27.201000;19.963187
27.239000;19.963187
27.277000;19.962392
27.315000;19.963187
27.353000;19.960817
27.391000;19.962392
27.430000;19.962392
27.468000;19.962392
27.506000;19.963982
27.544000;19.962392
27.582000;19.963187
27.620000;19.961597
27.658000;19.960817
27.696000;19.963982
27.734000;19.963187
27.772000;19.964777
27.810000;19.963187
27.848000;19.963982
27.886000;19.961597
27.924000;19.963187
27.962000;19.963187
28.000000;19.960817
28.038000;19.963982
28.077000;19.962392
28.115000;19.962392
28.153000;19.961597
28.191000;19.961597
28.229000;19.962392
28.267000;19.965572
28.305000;19.960817
28.343000;19.964777
28.381000;19.963187
28.419000;19.963187
28.458000;19.963187
28.496000;19.963982
28.534000;19.962392
28.572000;19.962392
28.610000;19.962392
28.648000;19.963187
28.686000;19.963187
28.724000;19.963187
28.762000;19.962392
28.800000;19.961597
28.838000;19.961597
28.876000;19.962392
28.914000;19.961597
28.952000;19.962392
28.990000;19.962392
29.029000;19.963982
29.067000;19.960817
29.105000;19.961597
29.143000;19.963982
29.182000;19.961597
29.220000;19.962392
29.258000;19.961597
29.296000;19.962392
29.334000;19.963187
29.372000;19.962392
29.410000;19.963982
29.448000;10.428562
29.486000;20.042669
29.524000;20.068813
29.562000;20.060894
29.600000;20.048204
29.638000;20.029200
29.676000;20.011771
29.715000;19.999096
29.753000;19.985627
29.791000;19.977707
29.829000;19.976912
29.867000;19.974542
29.905000;19.976117
29.943000;19.977707
29.981000;19.978502
30.019000;19.979297
30.057000;19.980077
30.095000;19.978502
30.133000;19.979297
30.171000;19.980077
30.209000;19.980077
30.247000;19.980077
30.285000;19.980077
30.324000;19.978502
30.362000;19.978502
30.400000;19.979297
30.438000;19.981667
30.476000;19.980077
30.514000;19.978502
30.552000;19.980077
30.590000;19.981667
30.628000;19.979297
30.666000;19.978502
30.704000;19.979297
30.742000;19.980077
30.780000;19.981667
30.819000;19.980077
30.857000;19.979297
30.895000;19.978502
30.933000;19.979297
30.971000;19.979297
31.009000;19.980872
31.047000;19.982462
31.085000;19.980872
31.123000;19.980077
31.161000;19.980872
31.199000;19.980077
31.237000;19.980077
31.275000;19.980872
31.314000;19.979297
31.352000;19.976912
31.390000;19.978502
31.428000;19.981667
31.466000;19.980077
31.504000;19.977707
31.542000;19.980077
31.580000;19.978502
31.618000;19.979297
31.656000;19.980077
31.695000;19.979297
31.733000;19.979297
31.771000;19.980077
31.809000;19.980872
31.847000;19.980077
31.885000;19.981667
31.923000;19.980077
31.961000;19.978502
31.999000;19.980872
32.037000;19.981667
32.075000;19.982462
32.113000;19.979297
32.151000;19.979297
32.189000;19.980077
32.227000;19.981667
32.265000;19.980077
32.303000;19.980077
32.341000;19.981667
32.379000;19.980077
32.418000;19.982462
32.456000;19.980872
32.494000;19.980077
32.532000;19.977707
32.570000;19.979297
32.608000;19.977707
32.646000;19.979297
32.684000;19.980872
32.722000;19.982462
32.760000;19.980077
32.798000;19.980872
32.836000;19.979297
32.874000;19.979297
32.913000;19.980077
32.951000;19.980872
32.989000;19.976912
33.027000;19.978502
33.065000;19.980872
33.103000;19.978502
33.141000;19.978502
33.179000;19.979297
33.217000;19.980077
33.255000;19.980872
33.293000;19.980077
33.331000;19.980872
33.369000;19.977707
33.407000;19.978502
33.445000;19.979297
33.483000;19.981667
33.522000;19.980872
33.561000;19.981667
33.599000;19.980077
33.637000;19.978502
33.675000;19.980077
33.713000;19.980872
33.751000;19.980077
33.789000;19.980077
33.827000;19.980077
33.865000;19.979297
33.903000;19.980872
33.941000;19.980872
33.979000;19.980872
34.017000;19.982462
34.055000;19.980077
34.093000;19.978502
34.131000;19.980872
34.169000;19.980077
34.207000;19.980077
34.245000;19.978502
34.283000;19.978502
34.322000;19.980077
34.360000;19.980872
34.398000;19.980077
34.436000;19.979297
34.474000;23.062254
34.512000;30.158733
34.550000;30.092976
34.588000;30.055747
34.626000;30.032768
34.664000;30.006639
34.702000;29.980495
34.740000;29.958311
34.778000;29.944841
34.817000;29.941676
34.855000;29.943251
34.893000;29.947211
34.931000;29.951171
34.969000;29.952761
35.007000;29.951966
35.045000;29.952761
35.083000;29.951966
35.121000;29.951171
35.159000;29.952761
35.197000;29.952761
35.235000;29.952761
35.273000;29.951171
35.311000;29.951966
35.349000;29.951966
35.387000;29.951171
35.425000;29.953556
35.463000;29.952761
35.501000;29.951966
35.539000;29.953556
35.577000;29.952761
35.616000;29.952761
35.654000;29.951171
35.692000;29.954351
35.730000;29.952761
35.768000;29.952761
35.806000;29.953556
35.844000;29.952761
35.882000;29.951171
35.920000;29.951966
35.958000;29.953556
35.996000;29.952761
36.034000;29.952761
36.073000;29.953556
36.111000;29.950391
36.149000;29.951966
36.187000;29.953556
36.225000;29.953556
36.263000;29.952761
36.301000;29.951171
36.339000;29.952761
36.377000;29.951171
36.415000;29.951966
36.453000;29.955146
36.491000;29.953556
36.529000;29.952761
36.567000;29.953556
36.605000;29.952761
36.644000;29.952761
36.682000;29.953556
36.720000;29.954351
36.758000;29.951966
36.796000;29.952761
36.834000;29.952761
36.872000;29.953556
36.910000;29.955926
36.948000;29.951966
36.986000;29.952761
37.024000;29.953556
37.062000;29.951966
37.100000;29.951171
37.138000;29.952761
37.176000;29.951171
37.214000;29.952761
37.253000;29.950391
37.291000;29.951966
37.329000;29.953556
37.367000;29.954351
37.405000;29.953556
37.443000;29.955146
37.481000;29.953556
37.519000;29.950391
37.557000;29.951966
37.595000;29.951966
37.633000;29.951966
37.671000;29.952761
37.709000;29.951966
37.747000;29.953556
37.785000;29.951171
37.823000;29.954351
37.862000;29.955926
37.900000;29.955146
37.938000;29.952761
37.976000;29.952761
38.014000;29.952761
38.052000;29.951171
38.090000;29.954351
38.128000;29.953556
38.166000;29.951966
38.204000;29.951966
38.242000;29.951171
38.280000;29.952761
38.319000;29.952761
38.357000;29.952761
38.395000;29.951966
38.433000;29.952761
38.471000;29.951171
38.509000;29.951966
38.547000;29.953556
38.585000;29.952761
38.623000;29.951966
38.661000;29.952761
38.699000;29.955146
38.737000;29.952761
38.775000;29.951171
38.813000;29.951966
38.851000;29.952761
38.889000;29.953556
38.927000;29.951171
38.965000;29.952761
39.003000;29.951171
39.041000;29.951171
39.080000;29.952761
39.118000;29.954351
39.156000;29.952761
39.194000;29.951966
39.232000;29.952761
39.270000;29.951171
39.308000;29.951966
39.346000;29.949596
39.384000;29.951966
39.422000;29.951171
39.460000;29.952761
39.498000;14.906078
39.536000;30.047287
39.575000;30.065512
39.613000;30.060757
39.651000;30.049672
39.689000;30.036203
39.727000;30.022733
39.765000;30.009264
39.803000;29.996589
39.841000;29.983120
39.879000;29.972035
39.917000;29.967280
39.955000;29.968075
39.993000;29.968075
40.031000;29.969650
40.069000;29.973610
40.108000;29.971240
40.146000;29.972035
40.184000;29.972035
40.222000;29.970445
40.260000;29.972035
40.298000;29.972035
40.336000;29.970445
40.374000;29.972830
40.412000;29.972830
40.451000;29.970445
40.489000;29.972830
40.527000;29.973610
40.565000;29.970445
40.603000;29.972830
40.641000;29.972830
40.679000;29.972035
40.717000;29.972035
40.755000;29.970445
40.793000;29.968075
40.831000;29.969650
40.869000;29.972830
40.907000;29.971240
40.945000;29.972035
40.984000;29.973610
41.022000;29.974405
41.060000;29.973610
41.098000;29.972830
41.136000;29.972035
41.174000;29.973610
41.212000;29.973610
41.250000;29.973610
41.289000;29.972035
41.327000;29.971240
41.365000;29.972035
41.403000;29.972830
41.441000;29.972830
41.479000;29.974405
41.517000;29.972035
41.555000;29.973610
41.593000;29.972035
41.631000;29.973610
41.669000;29.974405
41.707000;29.972035
41.746000;29.971240
41.784000;29.972830
41.822000;29.972830
41.860000;29.971240
41.898000;29.971240
41.936000;29.972830
41.974000;29.973610
42.012000;29.972830
42.050000;29.971240
42.088000;29.974405
42.126000;29.972035
42.165000;29.973610
42.203000;29.970445
42.241000;29.971240
42.279000;29.971240
42.317000;29.971240
42.356000;29.972830
42.394000;29.972830
42.432000;29.972035
42.470000;29.972035
42.508000;29.972830
42.546000;29.972830
42.584000;29.972830
42.623000;29.972035
42.661000;29.972830
42.699000;29.971240
42.737000;29.973610
42.775000;29.973610
42.813000;29.973610
42.851000;29.974405
42.889000;29.971240
42.927000;29.972830
42.965000;29.974405
43.003000;29.972035
43.041000;29.974405
43.079000;29.973610
43.118000;29.973610
43.156000;29.973610
43.194000;29.973610
43.232000;29.974405
43.270000;29.974405
43.308000;29.972830
43.346000;29.974405
43.384000;29.971240
43.422000;29.972830
43.460000;29.972035
43.498000;29.972035
43.536000;29.972035
43.575000;29.972830
43.613000;29.972830
43.651000;29.971240
43.689000;29.971240
43.727000;29.972035
43.765000;29.974405
43.803000;29.975200
43.841000;29.972035
43.879000;29.972035
43.917000;29.972035
43.955000;29.974405
43.993000;29.975200
44.031000;29.973610
44.069000;29.973610
44.108000;29.972830
44.146000;29.970445
44.184000;29.975200
44.222000;29.974405
44.260000;29.973610
44.298000;29.972830
44.336000;29.971240
44.374000;29.972830
44.413000;15.294249
44.451000;39.726102
44.489000;40.099213
44.527000;40.061985
44.565000;40.039021
44.603000;40.016041
44.641000;39.993857
44.679000;39.970098
44.717000;39.948709
44.755000;39.935239
44.793000;39.934444
44.831000;39.935239
44.869000;39.936814
44.907000;39.942364
44.945000;39.941569
44.983000;39.943159
45.022000;39.941569
45.060000;39.940774
45.098000;39.941569
45.136000;39.943159
45.174000;39.942364
45.212000;39.943159
45.250000;39.941569
45.288000;39.940774
45.326000;39.940774
45.364000;39.940774
45.402000;39.939994
45.440000;39.942364
45.478000;39.940774
45.516000;39.939994
45.554000;39.938404
45.592000;39.941569
45.630000;39.941569
45.668000;39.940774
45.706000;39.941569
45.744000;39.940774
45.782000;39.938404
45.821000;39.939994
45.859000;39.939994
45.897000;39.939994
45.935000;39.943954
45.973000;39.943159
46.011000;39.940774
46.049000;39.942364
46.087000;39.940774
46.125000;39.941569
46.163000;39.941569
46.201000;39.940774
46.239000;39.940774
46.277000;39.940774
46.315000;39.941569
46.353000;39.942364
46.391000;39.939994
46.429000;39.940774
46.467000;39.939199
46.505000;39.939199
46.544000;39.940774
46.582000;39.941569
46.620000;39.940774
46.658000;39.941569
46.696000;39.941569
46.734000;39.939994
46.772000;39.941569
46.810000;39.939994
46.848000;39.940774
46.886000;39.941569
46.924000;39.940774
46.962000;39.940774
47.000000;39.941569
47.038000;39.939994
47.076000;39.942364
47.114000;39.942364
47.153000;39.943159
47.191000;39.941569
47.229000;39.942364
47.267000;39.941569
47.305000;39.943954
47.343000;39.942364
47.381000;39.942364
47.419000;39.941569
47.457000;39.940774
47.495000;39.943159
47.533000;39.941569
47.571000;39.943159
47.609000;39.941569
47.647000;39.940774
47.685000;39.942364
47.723000;39.942364
47.761000;39.939199
47.799000;39.941569
47.837000;39.940774
47.875000;39.940774
47.913000;39.942364
47.951000;39.939994
47.989000;39.939994
48.028000;39.942364
48.066000;39.942364
48.104000;39.939994
48.142000;39.940774
48.180000;39.940774
48.218000;39.942364
48.256000;39.941569
48.294000;39.941569
48.332000;39.942364
48.370000;39.941569
48.408000;39.939994
48.446000;39.940774
48.484000;39.940774
48.522000;39.943159
48.560000;39.942364
48.598000;39.940774
48.636000;39.939994
48.675000;39.939994
48.713000;39.942364
48.751000;39.939994
48.789000;39.940774
48.827000;39.941569
48.865000;39.940774
48.903000;39.940774
48.941000;39.943954
48.979000;39.941569
49.017000;39.941569
49.055000;39.941569
49.093000;39.942364
49.132000;39.942364
49.170000;39.942364
49.208000;39.939994
49.246000;39.941569
49.284000;39.940774
49.322000;39.941569
49.360000;39.942364
49.398000;39.941569
49.436000;24.340057
49.474000;39.994112
49.512000;40.069379
49.550000;40.063035
49.588000;40.055910
49.626000;40.043235
49.664000;40.035316
49.702000;40.025011
49.741000;40.015501
49.779000;40.005212
49.817000;39.992537
49.855000;39.979863
49.893000;39.968763
49.931000;39.960048
49.969000;39.963213
50.007000;39.962433
50.045000;39.965598
50.083000;39.967968
50.122000;39.967968
50.160000;39.967968
50.198000;39.967968
50.236000;39.967188
50.274000;39.967188
50.312000;39.967968
50.350000;39.967188
50.388000;39.964803
50.426000;39.966393
50.464000;39.965598
50.502000;39.968763
50.540000;39.968763
50.578000;39.967968
50.616000;39.968763
50.655000;39.968763
50.693000;39.968763
50.731000;39.968763
50.769000;39.967968
50.807000;39.967968
50.845000;39.967188
50.883000;39.967188
50.921000;39.967968
50.959000;39.967188
50.997000;39.964803
51.035000;39.966393
51.073000;39.966393
51.111000;39.966393
51.149000;39.967188
51.187000;39.967968
51.226000;39.967968
51.264000;39.965598
51.302000;39.968763
51.340000;39.967968
51.378000;39.968763
51.416000;39.966393
51.454000;39.966393
51.492000;39.966393
51.531000;39.968763
51.569000;39.967188
51.607000;39.966393
51.645000;39.966393
51.683000;39.966393
51.721000;39.965598
51.759000;39.967188
51.797000;39.968763
51.835000;39.967188
51.873000;39.966393
51.911000;39.967188
51.949000;39.967968
51.987000;39.967968
52.025000;39.967968
52.063000;39.966393
52.101000;39.965598
52.139000;39.964803
52.177000;39.965598
52.215000;39.967968
52.253000;39.967188
52.292000;39.967188
52.330000;39.967968
52.368000;39.969558
52.406000;39.968763
52.444000;39.970353
52.482000;39.968763
52.520000;39.967188
52.558000;39.964803
52.596000;39.967968
52.634000;39.967188
52.672000;39.967188
52.710000;39.967188
52.748000;39.967188
52.787000;39.966393
52.825000;39.966393
52.863000;39.967968
52.901000;39.966393
52.939000;39.966393
52.977000;39.964803
53.015000;39.967968
53.053000;39.965598
53.091000;39.967188
53.130000;39.967188
53.168000;39.967188
53.206000;39.967968
53.244000;39.969558
53.282000;39.967188
53.320000;39.967188
53.358000;39.967968
53.396000;39.967188
53.434000;39.967968
53.472000;39.967188
53.510000;39.967188
53.548000;39.969558
53.586000;39.967188
53.625000;39.967968
53.663000;39.967968
53.701000;39.966393
53.739000;39.966393
53.777000;39.965598
53.815000;39.964803
53.853000;39.967968
53.891000;39.966393
53.929000;39.965598
53.967000;39.966393
54.005000;39.966393
54.043000;39.966393
54.081000;39.968763
54.120000;39.965598
54.158000;39.967188
54.196000;39.967188
54.234000;39.967968
54.272000;39.967188
54.310000;39.967188
54.348000;39.966393
54.386000;39.967968
54.424000;39.969558
54.462000;34.196840
54.500000;48.849007
54.538000;50.093542
54.576000;50.059478
54.614000;50.038089
54.653000;50.017494
54.691000;49.995310
54.729000;49.973921
54.767000;49.949367
54.805000;49.934322
54.843000;49.925608
54.881000;49.923223
54.919000;49.924813
54.957000;49.928773
54.995000;49.930348
55.033000;49.930348
55.071000;49.929568
55.110000;49.929568
55.148000;49.930348
55.186000;49.930348
55.224000;49.931143
55.262000;49.928773
55.300000;49.930348
55.338000;49.930348
55.376000;49.929568
55.414000;49.928773
55.452000;49.931143
55.490000;49.929568
55.529000;49.931937
55.567000;49.931143
55.605000;49.932732
55.643000;49.931937
55.681000;49.931937
55.719000;49.932732
55.757000;49.931143
55.795000;49.931937
55.833000;49.927978
55.871000;49.929568
55.909000;49.932732
55.947000;49.931937
55.986000;49.932732
56.024000;49.931937
56.062000;49.931143
56.100000;49.930348
56.138000;49.931937
56.176000;49.931937
56.214000;49.931143
56.252000;49.930348
56.290000;49.932732
56.328000;49.932732
56.366000;49.932732
56.405000;49.932732
56.443000;49.933527
56.481000;49.931937
56.519000;49.930348
56.557000;49.928773
56.595000;49.930348
56.633000;49.931143
56.671000;49.932732
56.709000;49.932732
56.747000;49.933527
56.785000;49.931143
56.823000;49.931143
56.861000;49.928773
56.899000;49.931937
56.937000;49.931143
56.975000;49.931937
57.013000;49.931143
57.052000;49.931937
57.090000;49.930348
57.128000;49.929568
57.166000;49.929568
57.204000;49.931143
57.242000;49.930348
57.280000;49.931143
57.318000;49.930348
57.356000;49.930348
57.394000;49.931937
57.432000;49.929568
57.470000;49.930348
57.509000;49.930348
57.547000;49.932732
57.585000;49.932732
57.623000;49.930348
57.661000;49.931143
57.699000;49.931143
57.737000;49.932732
57.775000;49.934322
57.813000;49.931937
57.851000;49.931937
57.889000;49.930348
57.927000;49.931143
57.966000;49.931143
58.004000;49.932732
58.042000;49.932732
58.082000;49.931143
58.120000;49.930348
58.158000;49.931143
58.196000;49.931143
58.234000;49.931143
58.272000;49.929568
58.310000;49.930348
58.348000;49.929568
58.386000;49.931143
58.424000;49.930348
58.462000;49.931143
58.501000;49.930348
58.539000;49.932732
58.577000;49.931143
58.615000;49.930348
58.653000;49.931937
58.691000;49.931937
58.729000;49.932732
58.767000;49.931937
58.805000;49.931937
58.843000;49.930348
58.881000;49.930348
58.919000;49.930348
58.957000;49.928773
58.995000;49.931143
59.034000;49.930348
59.072000;49.930348
59.110000;49.931937
59.148000;49.929568
59.186000;49.929568
59.224000;49.931143
59.262000;49.929568
59.300000;49.931937
59.338000;49.932732
59.376000;49.931143
59.414000;49.931937
59.452000;43.343264
59.491000;49.909228
59.529000;50.069242
59.567000;50.064488
59.605000;50.058158
59.643000;50.051813
59.681000;50.043893
59.719000;50.037564
59.757000;50.027259
59.795000;50.020929
59.833000;50.015379
59.872000;50.004280
59.910000;49.990825
59.948000;49.972601
59.986000;49.959926
60.024000;49.958337
60.062000;49.958337
60.100000;49.961501
60.138000;49.962296
60.176000;49.963091
60.214000;49.965476
60.252000;49.963091
60.290000;49.963091
60.328000;49.963886
60.366000;49.962296
60.404000;49.963886
60.442000;49.963091
60.480000;49.964681
60.518000;49.963091
60.556000;49.963886
60.596000;49.965476
60.634000;49.963091
60.673000;49.964681
60.711000;49.965476
60.749000;49.964681
60.787000;49.963091
60.825000;49.964681
60.863000;49.963091
60.901000;49.963091
60.939000;49.961501
60.977000;49.963091
61.015000;49.961501
61.053000;49.962296
61.091000;49.961501
61.129000;49.965476
61.167000;49.965476
61.205000;49.965476
61.243000;49.966256
61.282000;49.964681
61.320000;49.963091
61.357000;49.963886
61.396000;49.963091
61.434000;49.964681
61.472000;49.962296
61.510000;49.964681
61.548000;49.963886
61.586000;49.965476
61.624000;49.964681
61.662000;49.961501
61.700000;49.963091
61.738000;49.961501
61.776000;49.963091
61.814000;49.965476
61.854000;49.963886
61.892000;49.965476
61.930000;49.963886
61.969000;49.964681
62.007000;49.963886
62.045000;49.964681
62.083000;49.963886
62.121000;49.965476
62.159000;49.963091
62.197000;49.963091
62.235000;49.964681
62.273000;49.964681
62.311000;49.963886
62.349000;49.965476
62.387000;49.964681
62.425000;49.963886
62.463000;49.965476
62.501000;49.966256
62.540000;49.963886
62.578000;49.963091
62.616000;49.963886
62.654000;49.964681
62.692000;49.965476
62.730000;49.963886
62.768000;49.963886
62.806000;49.965476
62.844000;49.964681
62.882000;49.965476
62.920000;49.963886
62.958000;49.965476
62.996000;49.964681
63.035000;49.964681
63.073000;49.964681
63.112000;49.963886
63.150000;49.963886
63.188000;49.964681
63.226000;49.962296
63.264000;49.964681
63.302000;49.964681
63.340000;49.963886
63.378000;49.963886
63.416000;49.961501
63.454000;49.963091
63.493000;49.965476
63.531000;49.963886
63.569000;49.963091
63.607000;49.963091
63.645000;49.963886
63.683000;49.964681
63.721000;49.962296
63.759000;49.964681
63.797000;49.966256
63.835000;49.963886
63.874000;49.963091
63.912000;49.963886
63.950000;49.963091
63.988000;49.963091
64.026000;49.963091
64.064000;49.963886
64.102000;49.963886
64.140000;49.962296
64.178000;49.962296
64.216000;49.963886
64.254000;49.964681
64.292000;49.963886
64.330000;49.964681
64.368000;49.965476
64.406000;49.966256
64.444000;28.789028
64.482000;60.084705
64.520000;60.053806
64.558000;60.029252
64.596000;60.009453
64.635000;59.988843
64.673000;59.965084
64.711000;59.946860
64.749000;59.929431
64.787000;59.915181
64.825000;59.906466
64.863000;59.903287
64.901000;59.905671
64.939000;59.908836
64.977000;59.906466
65.015000;59.908041
65.053000;59.908836
65.091000;59.909631
65.129000;59.908836
65.167000;59.908836
65.206000;59.909631
65.244000;59.908041
65.282000;59.908041
65.320000;59.911221
65.358000;59.911221
65.396000;59.908041
65.434000;59.909631
65.472000;59.907246
65.510000;59.908836
65.548000;59.910426
65.586000;59.909631
65.624000;59.908836
65.662000;59.909631
65.701000;59.908836
65.739000;59.911221
65.777000;59.910426
65.815000;59.909631
65.853000;59.907246
65.891000;59.908836
65.929000;59.909631
65.967000;59.910426
66.005000;59.908041
66.043000;59.909631
66.081000;59.908836
66.119000;59.911221
66.157000;59.910426
66.195000;59.910426
66.234000;59.909631
66.272000;59.909631
66.310000;59.907246
66.348000;59.908041
66.386000;59.908041
66.424000;59.908836
66.462000;59.909631
66.500000;59.910426
66.539000;59.910426
66.577000;59.909631
66.615000;59.909631
66.653000;59.909631
66.691000;59.909631
66.729000;59.908836
66.767000;59.911221
66.805000;59.911221
66.843000;59.912001
66.881000;59.908836
66.919000;59.908836
66.957000;59.912001
66.995000;59.910426
67.033000;59.910426
67.071000;59.911221
67.109000;59.910426
67.147000;59.911221
67.185000;59.906466
67.223000;59.908836
67.261000;59.908836
67.300000;59.909631
67.338000;59.909631
67.376000;59.912001
67.414000;59.910426
67.452000;59.911221
67.490000;59.908836
67.528000;59.910426
67.566000;59.908041
67.604000;59.908836
67.642000;59.909631
67.680000;59.908836
67.718000;59.908041
67.756000;59.910426
67.794000;59.910426
67.833000;59.911221
67.871000;59.908836
67.909000;59.910426
67.947000;59.911221
67.985000;59.911221
68.023000;59.910426
68.061000;59.910426
68.099000;59.908836
68.137000;59.912001
68.175000;59.909631
68.214000;59.910426
68.252000;59.910426
68.290000;59.909631
68.328000;59.911221
68.366000;59.910426
68.404000;59.908041
68.442000;59.909631
68.480000;59.908836
68.518000;59.908041
68.556000;59.910426
68.594000;59.909631
68.632000;59.909631
68.670000;59.909631
68.708000;59.908836
68.746000;59.909631
68.784000;59.911221
68.822000;59.910426
68.860000;59.911221
68.898000;59.910426
68.937000;59.908836
68.975000;59.912001
69.013000;59.911221
69.051000;59.912001
69.089000;59.912001
69.127000;59.910426
69.165000;59.912796
69.204000;59.911221
69.242000;59.910426
69.280000;59.912001
69.318000;59.910426
69.356000;59.911221
69.394000;59.909631
69.432000;48.237690
69.470000;60.065161
69.508000;60.055651
69.546000;60.050101
69.584000;60.043771
69.622000;60.038222
69.660000;60.031892
69.698000;60.025547
69.737000;60.019997
69.775000;60.017627
69.813000;60.013667
69.851000;60.009708
69.889000;60.003363
69.927000;59.989113
69.965000;59.971684
70.003000;59.949500
70.041000;59.938400
70.080000;59.939990
70.118000;59.943155
70.156000;59.948705
70.194000;59.951075
70.232000;59.953460
70.270000;59.953460
70.308000;59.948705
70.346000;59.949500
70.384000;59.950295
70.422000;59.951075
70.460000;59.951870
70.499000;59.951075
70.537000;59.950295
70.575000;59.951075
70.613000;59.951075
70.651000;59.951075
70.689000;59.951075
70.727000;59.951870
70.765000;59.950295
70.803000;59.951870
70.841000;59.951075
70.879000;59.951870
70.917000;59.951075
70.956000;59.950295
70.994000;59.948705
71.031000;59.949500
71.069000;59.951075
71.108000;59.951870
71.146000;59.949500
71.184000;59.949500
71.222000;59.951075
71.260000;59.951870
71.298000;59.952665
71.336000;59.952665
71.374000;59.949500
71.413000;59.950295
71.451000;59.950295
71.489000;59.951075
71.527000;59.949500
71.565000;59.950295
71.603000;59.951075
71.641000;59.949500
71.679000;59.950295
71.717000;59.950295
71.755000;59.951075
71.793000;59.951075
71.831000;59.951870
71.869000;59.953460
71.907000;59.951075
71.945000;59.951870
71.983000;59.949500
72.021000;59.950295
72.060000;59.952665
72.098000;59.951870
72.136000;59.951075
72.174000;59.953460
72.212000;59.951870
72.251000;59.948705
72.289000;59.949500
72.327000;59.951075
72.365000;59.950295
72.403000;59.952665
72.441000;59.950295
72.479000;59.950295
72.517000;59.953460
72.555000;59.951870
72.594000;59.951075
72.632000;59.951075
72.670000;59.950295
72.708000;59.950295
72.746000;59.952665
72.784000;59.951870
72.822000;59.951075
72.860000;59.952665
72.898000;59.952665
72.936000;59.950295
72.974000;59.952665
73.012000;59.952665
73.050000;59.951075
73.089000;59.950295
73.127000;59.951870
73.165000;59.951075
73.203000;59.950295
73.241000;59.950295
73.279000;59.951870
73.317000;59.951870
73.355000;59.949500
73.393000;59.949500
73.431000;59.951075
73.469000;59.950295
73.507000;59.951075
73.545000;59.951075
73.584000;59.951075
73.622000;59.950295
73.660000;59.953460
73.698000;59.949500
73.736000;59.950295
73.774000;59.950295
73.812000;59.952665
73.851000;59.950295
73.889000;59.951075
73.927000;59.948705
73.965000;59.951075
74.003000;59.951075
74.041000;59.951870
74.079000;59.951870
74.117000;59.952665
74.155000;59.951075
74.193000;59.952665
74.231000;59.952665
74.269000;59.951870
74.308000;59.951075
74.346000;59.951870
74.384000;59.954255
74.422000;59.951075
74.460000;39.167598
74.498000;70.082243
74.536000;70.049769
74.574000;70.026790
74.612000;70.006991
74.650000;69.987971
74.688000;69.966582
74.726000;69.947578
74.764000;69.931724
74.802000;69.915884
74.841000;69.904799
74.879000;69.894495
74.917000;69.893700
74.955000;69.896085
74.993000;69.897660
75.031000;69.898455
75.069000;69.899250
75.107000;69.899250
75.145000;69.898455
75.183000;69.898455
75.221000;69.897660
75.259000;69.898455
75.298000;69.898455
75.336000;69.897660
75.374000;69.896865
75.412000;69.899250
75.450000;69.898455
75.488000;69.897660
75.526000;69.896085
75.564000;69.896085
75.602000;69.896865
75.641000;69.896865
75.679000;69.896085
75.717000;69.896865
75.755000;69.897660
75.793000;69.897660
75.831000;69.898455
75.869000;69.898455
75.907000;69.896865
75.945000;69.896865
75.983000;69.896865
76.021000;69.898455
76.059000;69.899250
76.097000;69.898455
76.136000;69.898455
76.174000;69.899250
76.212000;69.896865
76.250000;69.898455
76.288000;69.897660
76.326000;69.898455
76.364000;69.898455
76.402000;69.897660
76.440000;69.897660
76.478000;69.900840
76.516000;69.899250
76.554000;69.896865
76.592000;69.899250
76.630000;69.898455
76.669000;69.896085
76.707000;69.897660
76.745000;69.897660
76.783000;69.899250
76.821000;69.899250
76.859000;69.898455
76.897000;69.898455
76.935000;69.897660
76.973000;69.899250
77.011000;69.899250
77.049000;69.899250
77.087000;69.896085
77.125000;69.894495
77.163000;69.893700
77.201000;69.896085
77.240000;69.897660
77.278000;69.897660
77.316000;69.897660
77.354000;69.897660
77.392000;69.896865
77.431000;69.897660
77.469000;69.896085
77.507000;69.896865
77.545000;69.899250
77.585000;69.897660
77.623000;69.898455
77.661000;69.896865
77.699000;69.896865
77.737000;69.898455
77.775000;69.897660
77.813000;69.898455
77.851000;69.899250
77.889000;69.897660
77.927000;69.900840
77.965000;69.899250
78.003000;69.897660
78.042000;69.897660
78.080000;69.896085
78.118000;69.899250
78.156000;69.900840
78.194000;69.898455
78.232000;69.898455
78.270000;69.897660
78.308000;69.897660
78.346000;69.897660
78.384000;69.899250
78.423000;69.899250
78.461000;69.898455
78.499000;69.899250
78.537000;69.899250
78.575000;69.899250
78.613000;69.900045
78.651000;69.898455
78.689000;69.898455
78.727000;69.897660
78.765000;69.898455
78.803000;69.898455
78.844000;69.899250
78.882000;69.898455
78.920000;69.898455
78.958000;69.898455
78.996000;69.899250
79.034000;69.900045
79.072000;69.900840
79.110000;69.900045
79.148000;69.899250
79.186000;69.900840
79.225000;69.900045
79.263000;69.899250
79.301000;69.898455
79.339000;69.897660
79.377000;69.898455
79.415000;61.037710
79.453000;69.870961
79.491000;70.062669
79.529000;70.048404
79.567000;70.043649
79.605000;70.042074
79.644000;70.040485
79.682000;70.033360
79.720000;70.027810
79.758000;70.023055
79.796000;70.019890
79.834000;70.015930
79.872000;70.011176
79.910000;70.008011
79.948000;70.005626
79.986000;69.997706
80.024000;69.988991
80.062000;69.968397
80.100000;69.944638
80.138000;69.929579
80.176000;69.929579
80.214000;69.937498
80.253000;69.943048
80.291000;69.943843
80.329000;69.943843
80.367000;69.946213
80.405000;69.947803
80.443000;69.946213
80.481000;69.944638
80.519000;69.946213
80.557000;69.947008
80.595000;69.947803
80.633000;69.948598
80.671000;69.948598
80.709000;69.947008
80.747000;69.947803
80.785000;69.947803
80.823000;69.949378
80.861000;69.948598
80.900000;69.948598
80.938000;69.947803
80.976000;69.947008
81.014000;69.947803
81.052000;69.948598
81.090000;69.947008
81.128000;69.947008
81.166000;69.947803
81.204000;69.947803
81.242000;69.947008
81.281000;69.947008
81.319000;69.948598
81.357000;69.945418
81.395000;69.947803
81.433000;69.947803
81.471000;69.947008
81.509000;69.947803
81.547000;69.948598
81.585000;69.947803
81.623000;69.947008
81.661000;69.947803
81.699000;69.947008
81.737000;69.948598
81.775000;69.948598
81.814000;69.947008
81.852000;69.947008
81.890000;69.948598
81.928000;69.946213
81.966000;69.947008
82.004000;69.949378
82.042000;69.946213
82.080000;69.948598
82.118000;69.947008
82.156000;69.947803
82.194000;69.948598
82.232000;69.947008
82.271000;69.948598
82.309000;69.946213
82.347000;69.947803
82.385000;69.947803
82.423000;69.949378
82.461000;69.946213
82.499000;69.947008
82.537000;69.946213
82.575000;69.947803
82.613000;69.947803
82.651000;69.947008
82.689000;69.946213
82.727000;69.945418
82.765000;69.947008
82.804000;69.948598
82.842000;69.947803
82.880000;69.948598
82.918000;69.947803
82.956000;69.944638
82.994000;69.947803
83.032000;69.947803
83.070000;69.945418
83.108000;69.947803
83.146000;69.946213
83.185000;69.945418
83.223000;69.946213
83.261000;69.947008
83.299000;69.947008
83.337000;69.947008
83.375000;69.946213
83.413000;69.947008
83.451000;69.947008
83.489000;69.947008
83.527000;69.948598
83.565000;69.948598
83.603000;69.946213
83.642000;69.947803
83.680000;69.945418
83.718000;69.947008
83.756000;69.946213
83.794000;69.945418
83.832000;69.946213
83.870000;69.946213
83.908000;69.944638
83.946000;69.944638
83.984000;69.943843
84.022000;69.945418
84.060000;69.948598
84.098000;69.947803
84.137000;69.946213
84.175000;69.947803
84.213000;69.945418
84.251000;69.947008
84.289000;69.944638
84.327000;69.946213
84.365000;69.946213
84.403000;69.947008
84.441000;48.630360
84.479000;80.079736
84.518000;80.040917
84.556000;80.017158
84.595000;79.996564
84.633000;79.980710
84.671000;79.961705
84.709000;79.945866
84.747000;79.932396
84.785000;79.918132
84.823000;79.904662
84.861000;79.892783
84.899000;79.884068
84.937000;79.881698
84.975000;79.887233
85.013000;79.886438
85.051000;79.888823
85.089000;79.889618
85.127000;79.887233
85.165000;79.889618
85.203000;79.887233
85.242000;79.888823
85.280000;79.888823
85.318000;79.889618
85.356000;79.889618
85.394000;79.889618
85.432000;79.889618
85.470000;79.888823
85.508000;79.887233
85.547000;79.886438
85.585000;79.887233
85.623000;79.888823
85.661000;79.887233
85.699000;79.887233
85.737000;79.888028
85.776000;79.888823
85.814000;79.888028
85.852000;79.888028
85.890000;79.889618
85.928000;79.888028
85.966000;79.888823
86.004000;79.890413
86.042000;79.886438
86.080000;79.887233
86.118000;79.889618
86.156000;79.889618
86.195000;79.888028
86.233000;79.888823
86.271000;79.888823
86.309000;79.888028
86.347000;79.887233
86.385000;79.887233
86.423000;79.888823
86.461000;79.888028
86.499000;79.887233
86.537000;79.888028
86.575000;79.888028
86.613000;79.887233
86.651000;79.889618
86.689000;79.888028
86.728000;79.889618
86.766000;79.888823
86.804000;79.887233
86.842000;79.886438
86.880000;79.888028
86.918000;79.886438
86.956000;79.884068
86.994000;79.886438
87.034000;79.888028
87.072000;79.886438
87.110000;79.888028
87.149000;79.887233
87.187000;79.885658
87.225000;79.888028
87.263000;79.887233
87.301000;79.888028
87.339000;79.888028
87.377000;79.888823
87.415000;79.887233
87.453000;79.885658
87.491000;79.888028
87.529000;79.888028
87.567000;79.888028
87.605000;79.887233
87.643000;79.886438
87.681000;79.888028
87.719000;79.888028
87.757000;79.887233
87.795000;79.887233
87.833000;79.886438
87.871000;79.884863
87.909000;79.888028
87.948000;79.887233
87.986000;79.888028
88.024000;79.888028
88.062000;79.889618
88.100000;79.887233
88.138000;79.886438
88.176000;79.888028
88.214000;79.889618
88.252000;79.889618
88.290000;79.888823
88.328000;79.889618
88.366000;79.888823
88.404000;79.887233
88.442000;79.888028
88.480000;79.888028
88.519000;79.887233
88.557000;79.886438
88.595000;79.885658
88.633000;79.889618
88.671000;79.888823
88.709000;79.888028
88.747000;79.888823
88.785000;79.889618
88.823000;79.890413
88.861000;79.888823
88.899000;79.888028
88.937000;79.888028
88.975000;79.889618
89.013000;79.888823
89.051000;79.887233
89.089000;79.890413
89.127000;79.889618
89.165000;79.890413
89.203000;79.889618
89.242000;79.888823
89.280000;79.888823
89.318000;79.888028
89.356000;79.889618
89.394000;79.890413
89.432000;79.887233
89.470000;58.830916
89.508000;80.072836
89.546000;80.044322
89.584000;80.035608
89.622000;80.035608
89.660000;80.035608
89.698000;80.034018
89.736000;80.028483
89.774000;80.023728
89.812000;80.019768
89.851000;80.015013
89.889000;80.011834
89.927000;80.007874
89.965000;80.005504
90.003000;80.002339
90.041000;79.999159
90.079000;79.995994
90.117000;79.991239
90.155000;79.982525
90.193000;79.958766
90.231000;79.927072
90.269000;79.912027
90.307000;79.914397
90.346000;79.923112
90.384000;79.933416
90.422000;79.938171
90.460000;79.939746
90.498000;79.940541
90.536000;79.942131
90.574000;79.941336
90.612000;79.941336
90.650000;79.938951
90.689000;79.938171
90.727000;79.941336
90.767000;79.941336
90.805000;79.942926
90.843000;79.939746
90.881000;79.938171
90.919000;79.938171
90.957000;79.942131
90.995000;79.940541
91.033000;79.942131
91.071000;79.940541
91.109000;79.940541
91.147000;79.938951
91.185000;79.942131
91.223000;79.942131
91.261000;79.940541
91.300000;79.938951
91.338000;79.938951
91.375000;79.940541
91.413000;79.942131
91.452000;79.938951
91.490000;79.940541
91.528000;79.938951
91.566000;79.939746
91.604000;79.940541
91.642000;79.941336
91.680000;79.939746
91.718000;79.939746
91.756000;79.940541
91.794000;79.940541
91.832000;79.939746
91.870000;79.938951
91.908000;79.939746
91.947000;79.938951
91.985000;79.942131
92.025000;79.940541
92.063000;79.941336
92.101000;79.940541
92.139000;79.940541
92.177000;79.940541
92.215000;79.940541
92.253000;79.939746
92.291000;79.941336
92.329000;79.939746
92.367000;79.938951
92.405000;79.938951
92.443000;79.943706
92.482000;79.943706
92.520000;79.941336
92.558000;79.941336
92.596000;79.938951
92.634000;79.938951
92.672000;79.941336
92.710000;79.940541
92.748000;79.940541
92.786000;79.940541
92.824000;79.940541
92.862000;79.940541
92.900000;79.940541
92.938000;79.940541
92.976000;79.939746
93.014000;79.938951
93.053000;79.938951
93.091000;79.939746
93.129000;79.939746
93.167000;79.941336
93.205000;79.939746
93.243000;79.939746
93.282000;79.939746
93.320000;79.940541
93.358000;79.938951
93.396000;79.939746
93.434000;79.939746
93.472000;79.941336
93.510000;79.942131
93.549000;79.942131
93.587000;79.942131
93.625000;79.941336
93.663000;79.938951
93.701000;79.939746
93.739000;79.941336
93.777000;79.941336
93.815000;79.940541
93.854000;79.939746
93.892000;79.938171
93.930000;79.940541
93.968000;79.940541
94.006000;79.938171
94.044000;79.938951
94.082000;79.939746
94.120000;79.939746
94.158000;79.938171
94.196000;79.938171
94.234000;79.937376
94.272000;79.938951
94.310000;79.939746
94.349000;79.939746
94.387000;79.942131
94.425000;66.796449
94.463000;88.594249
94.501000;90.066145
94.539000;90.014651
94.577000;89.989302
94.615000;89.971078
94.653000;89.953649
94.691000;89.937014
94.729000;89.923545
94.767000;89.913255
94.806000;89.898991
94.844000;89.883946
94.882000;89.874437
94.920000;89.860967
94.958000;89.860172
94.996000;89.860172
95.034000;89.860172
95.072000;89.861762
95.110000;89.863337
95.148000;89.864132
95.186000;89.864132
95.224000;89.863337
95.262000;89.861762
95.300000;89.864927
95.338000;89.864132
95.376000;89.864132
95.414000;89.862557
95.453000;89.864927
95.491000;89.864927
95.529000;89.864132
95.567000;89.864927
95.605000;89.864927
95.644000;89.864132
95.682000;89.863337
95.720000;89.865722
95.758000;89.865722
95.796000;89.865722
95.834000;89.864132
95.872000;89.864927
95.910000;89.865722
95.948000;89.865722
95.986000;89.863337
96.024000;89.863337
96.062000;89.864927
96.100000;89.864132
96.138000;89.866517
96.177000;89.865722
96.215000;89.864927
96.253000;89.863337
96.291000;89.866517
96.329000;89.864132
96.367000;89.864927
96.405000;89.865722
96.443000;89.864927
96.481000;89.866517
96.519000;89.864927
96.558000;89.865722
96.596000;89.865722
96.634000;89.865722
96.672000;89.864927
96.710000;89.866517
96.748000;89.865722
96.786000;89.865722
96.824000;89.865722
96.862000;89.864132
96.900000;89.866517
96.938000;89.866517
96.976000;89.867312
97.014000;89.865722
97.052000;89.865722
97.090000;89.868092
97.128000;89.866517
97.166000;89.865722
97.205000;89.865722
97.243000;89.864927
97.281000;89.864927
97.319000;89.865722
97.357000;89.865722
97.396000;89.865722
97.434000;89.865722
97.472000;89.862557
97.510000;89.864927
97.548000;89.864132
97.586000;89.865722
97.624000;89.864927
97.663000;89.864927
97.701000;89.864927
97.739000;89.866517
97.777000;89.864927
97.815000;89.866517
97.853000;89.866517
97.891000;89.864927
97.929000;89.867312
97.967000;89.865722
98.005000;89.867312
98.043000;89.866517
98.081000;89.866517
98.119000;89.866517
98.157000;89.864927
98.195000;89.866517
98.234000;89.865722
98.272000;89.866517
98.310000;89.865722
98.348000;89.864132
98.386000;89.865722
98.424000;89.864927
98.462000;89.865722
98.500000;89.864927
98.538000;89.865722
98.576000;89.864927
98.614000;89.864132
98.652000;89.865722
98.691000;89.866517
98.729000;89.866517
98.767000;89.865722
98.805000;89.864132
98.843000;89.863337
98.881000;89.867312
98.919000;89.866517
98.957000;89.866517
98.995000;89.865722
99.033000;89.864927
99.071000;89.866517
99.109000;89.864927
99.147000;89.863337
99.185000;89.866517
99.223000;89.864927
99.262000;89.864132
99.300000;89.865722
99.338000;89.866517
99.376000;89.864132
99.414000;89.867312
99.452000;81.263283
99.490000;88.798856
99.528000;90.060835
99.566000;90.027551
99.604000;90.023591
99.642000;90.025181
99.680000;90.024386
99.718000;90.021221
99.756000;90.018056
99.794000;90.015671
99.832000;90.013302
99.871000;90.007752
99.909000;90.003792
99.947000;89.999832
99.985000;89.997447
100.023000;89.994282
100.061000;89.990322
100.099000;89.987157
100.137000;89.984773
100.175000;89.981608
100.213000;89.976853
100.251000;89.966563
100.289000;89.945174
100.327000;89.910315
100.365000;89.892091
100.404000;89.892091
100.442000;89.903176
100.480000;89.911890
100.518000;89.920605
100.556000;89.924565
100.594000;89.927745
100.632000;89.926950
100.670000;89.926950
100.708000;89.928525
100.746000;89.926950
100.784000;89.927745
100.822000;89.928525
100.861000;89.928525
100.899000;89.929320
100.937000;89.928525
100.975000;89.927745
101.013000;89.924565
101.051000;89.926155
101.089000;89.929320
101.127000;89.926155
101.165000;89.928525
101.203000;89.925360
101.241000;89.926155
101.279000;89.927745
101.317000;89.926950
101.356000;89.926950
101.394000;89.928525
101.432000;89.925360
101.470000;89.927745
101.508000;89.930910
101.546000;89.928525
101.584000;89.927745
101.622000;89.926950
101.660000;89.926155
101.698000;89.930115
101.736000;89.928525
101.774000;89.929320
101.812000;89.927745
101.851000;89.926950
101.889000;89.929320
101.927000;89.926950
101.965000;89.929320
102.003000;89.928525
102.041000;89.927745
102.079000;89.927745
102.117000;89.926155
102.155000;89.927745
102.193000;89.926950
102.231000;89.926950
102.269000;89.928525
102.307000;89.927745
102.345000;89.927745
102.383000;89.927745
102.421000;89.927745
102.460000;89.927745
102.498000;89.930115
102.536000;89.928525
102.574000;89.927745
102.612000;89.927745
102.650000;89.927745
102.688000;89.928525
102.726000;89.927745
102.764000;89.927745
102.802000;89.928525
102.840000;89.927745
102.878000;89.926950
102.916000;89.927745
102.955000;89.928525
102.993000;89.928525
103.031000;89.927745
103.069000;89.926155
103.107000;89.927745
103.145000;89.926950
103.183000;89.926155
103.221000;89.926155
103.259000;89.925360
103.297000;89.926950
103.335000;89.927745
103.373000;89.927745
103.411000;89.926950
103.449000;89.926155
103.487000;89.925360
103.525000;89.926950
103.564000;89.926950
103.602000;89.926950
103.640000;89.925360
103.678000;89.925360
103.716000;89.926950
103.754000;89.929320
103.792000;89.927745
103.830000;89.927745
103.868000;89.926950
103.906000;89.927745
103.944000;89.926155
103.982000;89.929320
104.020000;89.926950
104.059000;89.926950
104.097000;89.926155
104.135000;89.925360
104.173000;89.926155
104.211000;89.926950
104.249000;89.926950
104.287000;89.929320
104.325000;89.926950
104.364000;89.927745
104.402000;89.928525
104.440000;33.475681
104.478000;100.089032
104.516000;100.040719
104.554000;99.997940
104.592000;99.973371
104.630000;99.955162
104.668000;99.940102
104.706000;99.925058
104.744000;99.917123
104.782000;99.908408
104.820000;99.895734
104.858000;99.883059
104.896000;99.867220
104.935000;99.850585
104.973000;99.845036
105.011000;99.846626
105.049000;99.846626
105.087000;99.850585
105.125000;99.852175
105.163000;99.852955
105.201000;99.850585
105.239000;99.850585
105.278000;99.848996
105.316000;99.849791
105.354000;99.851380
105.392000;99.851380
105.430000;99.852955
105.468000;99.849791
105.506000;99.851380
105.544000;99.851380
105.582000;99.852175
105.620000;99.850585
105.658000;99.852955
105.696000;99.852175
105.734000;99.849791
105.773000;99.852175
105.811000;99.852955
105.849000;99.850585
105.887000;99.854545
105.925000;99.852955
105.963000;99.853750
106.001000;99.852175
106.039000;99.849791
106.077000;99.851380
106.115000;99.852175
106.154000;99.849791
106.192000;99.848996
106.230000;99.850585
106.268000;99.854545
106.306000;99.852175
106.344000;99.852175
106.382000;99.851380
106.420000;99.852955
106.458000;99.852955
106.496000;99.850585
106.534000;99.849791
106.572000;99.852175
106.610000;99.849791
106.648000;99.849791
106.687000;99.850585
106.725000;99.851380
106.763000;99.852175
106.801000;99.851380
106.839000;99.850585
106.877000;99.850585
106.915000;99.851380
106.953000;99.852955
106.991000;99.852175
107.029000;99.854545
107.067000;99.852955
107.105000;99.852175
107.144000;99.853750
107.182000;99.852175
107.220000;99.852955
107.258000;99.852955
107.296000;99.852955
107.334000;99.852955
107.372000;99.851380
107.410000;99.852955
107.448000;99.849791
107.486000;99.848996
107.524000;99.851380
107.563000;99.852175
107.601000;99.850585
107.639000;99.852175
107.677000;99.854545
107.715000;99.853750
107.753000;99.850585
107.793000;99.851380
107.831000;99.854545
107.869000;99.852175
107.907000;99.852955
107.945000;99.852175
107.983000;99.850585
108.021000;99.852955
108.059000;99.852955
108.097000;99.854545
108.135000;99.852175
108.173000;99.848996
108.211000;99.851380
108.249000;99.851380
108.288000;99.852955
108.326000;99.853750
108.364000;99.852955
108.402000;99.852175
108.440000;99.853750
108.478000;99.852955
108.516000;99.850585
108.554000;99.850585
108.592000;99.851380
108.630000;99.852175
108.669000;99.855340
108.707000;99.851380
108.745000;99.851380
108.783000;99.851380
108.821000;99.848996
108.859000;99.849791
108.897000;99.851380
108.935000;99.850585
108.973000;99.852175
109.011000;99.850585
109.049000;99.849791
109.087000;99.852175
109.125000;99.854545
109.164000;99.851380
109.202000;99.849791
109.240000;99.850585
109.278000;99.852955
109.316000;99.852175
109.354000;99.848216
109.392000;99.849791
109.430000;22.620205
109.468000;100.055163
109.506000;100.037749
109.544000;100.010810
109.582000;100.009220
109.620000;100.016359
109.658000;100.019524
109.697000;100.018729
109.735000;100.017934
109.773000;100.013180
109.811000;100.010015
109.849000;100.009220
109.887000;100.004465
109.925000;99.998135
109.963000;99.994955
110.001000;99.988625
110.039000;99.986256
110.077000;99.985461
110.115000;99.981501
110.153000;99.977541
110.191000;99.974361
110.230000;99.969606
110.268000;99.968031
110.306000;99.964071
110.344000;99.952177
110.382000;99.922868
110.420000;99.882474
110.458000;99.870595
110.496000;99.876130
110.534000;99.886434
110.572000;99.897519
110.610000;99.907823
110.648000;99.917333
110.686000;99.919703
110.724000;99.921293
110.762000;99.922088
110.801000;99.920498
110.839000;99.918113
110.877000;99.919703
110.915000;99.918908
110.953000;99.920498
110.991000;99.919703
111.029000;99.921293
111.067000;99.920498
111.105000;99.920498
111.143000;99.918908
111.181000;99.918908
111.219000;99.919703
111.257000;99.918908
111.295000;99.918908
111.334000;99.920498
111.372000;99.920498
111.410000;99.918908
111.448000;99.920498
111.486000;99.920498
111.524000;99.918908
111.562000;99.918908
111.601000;99.918908
111.639000;99.919703
111.677000;99.919703
111.715000;99.919703
111.753000;99.919703
111.791000;99.918113
111.829000;99.918908
111.867000;99.922088
111.905000;99.919703
111.943000;99.918908
111.981000;99.919703
112.019000;99.921293
112.057000;99.918113
112.096000;99.918908
112.134000;99.921293
112.172000;99.919703
112.210000;99.918113
112.248000;99.919703
112.286000;99.921293
112.324000;99.921293
112.362000;99.921293
112.400000;99.921293
112.439000;99.921293
112.477000;99.921293
112.515000;99.919703
112.553000;99.922868
112.591000;99.919703
112.629000;99.919703
112.667000;99.918908
112.705000;99.919703
112.743000;99.919703
112.781000;99.919703
112.819000;99.919703
112.857000;99.920498
112.895000;99.920498
112.933000;99.920498
112.971000;99.920498
113.009000;99.921293
113.047000;99.920498
113.085000;99.921293
113.123000;99.919703
113.162000;99.920498
113.200000;99.923663
113.238000;99.920498
113.276000;99.919703
113.314000;99.920498
113.352000;99.918908
113.390000;99.918908
113.428000;99.921293
113.466000;99.921293
113.505000;99.922088
113.543000;99.921293
113.581000;99.919703
113.619000;99.919703
113.657000;99.919703
113.695000;99.918908
113.733000;99.919703
113.771000;99.917333
113.809000;99.916538
113.847000;99.919703
113.885000;99.921293
113.923000;99.920498
113.961000;99.920498
114.000000;99.919703
114.038000;99.921293
114.076000;99.921293
114.114000;99.920498
114.152000;99.919703
114.191000;99.920498
114.229000;99.921293
114.267000;99.919703
114.305000;99.918908
114.343000;99.919703
114.381000;99.919703
114.419000;99.920498
114.457000;65.463972
114.495000;109.688064
114.533000;110.067521
114.571000;110.000968
114.609000;109.970864
114.648000;109.951860
114.686000;109.934430
114.724000;109.920166
114.762000;109.910671
114.800000;109.904327
114.838000;109.899572
114.876000;109.890857
114.914000;109.876593
114.952000;109.859958
114.990000;109.840159
115.028000;109.830649
115.066000;109.829074
115.105000;109.831444
115.143000;109.834609
115.181000;109.835404
115.219000;109.836199
115.257000;109.834609
115.295000;109.836994
115.333000;109.833814
115.371000;109.835404
115.409000;109.836199
115.447000;109.834609
115.485000;109.834609
115.523000;109.835404
115.561000;109.836994
115.599000;109.835404
115.637000;109.834609
115.675000;109.836199
115.713000;109.836199
115.752000;109.836994
115.790000;109.835404
115.828000;109.836994
115.866000;109.836994
115.904000;109.839364
115.942000;109.836199
115.980000;109.836994
116.018000;109.836199
116.056000;109.834609
116.094000;109.836994
116.132000;109.837789
116.170000;109.838569
116.209000;109.838569
116.247000;109.835404
116.285000;109.836199
116.323000;109.836994
116.361000;109.836199
116.399000;109.836199
116.437000;109.836994
116.475000;109.836994
116.513000;109.836199
116.551000;109.835404
116.589000;109.836994
116.627000;109.834609
116.665000;109.835404
116.704000;109.833814
116.742000;109.835404
116.780000;109.834609
116.818000;109.836199
116.856000;109.837789
116.894000;109.836199
116.932000;109.835404
116.970000;109.834609
117.008000;109.835404
117.046000;109.832239
117.085000;109.835404
117.123000;109.836994
117.161000;109.835404
117.199000;109.836994
117.237000;109.835404
117.275000;109.833814
117.313000;109.834609
117.351000;109.833814
117.389000;109.835404
117.427000;109.836994
117.465000;109.837789
117.503000;109.836994
117.542000;109.835404
117.580000;109.833814
117.618000;109.836199
117.656000;109.835404
117.694000;109.836994
117.732000;109.836994
117.770000;109.840159
117.808000;109.837789
117.846000;109.837789
117.884000;109.837789
117.922000;109.836994
117.960000;109.836199
117.998000;109.836199
118.037000;109.837789
118.075000;109.836994
118.113000;109.836994
118.151000;109.837789
118.189000;109.833814
118.227000;109.836994
118.265000;109.836994
118.303000;109.836994
118.341000;109.836994
118.379000;109.835404
118.417000;109.836994
118.455000;109.836199
118.494000;109.834609
118.532000;109.836994
118.570000;109.836199
118.608000;109.834609
118.646000;109.836994
118.684000;109.836994
118.722000;109.833814
118.760000;109.836199
118.798000;109.836994
118.836000;109.836199
118.874000;109.835404
118.912000;109.836994
118.951000;109.835404
118.989000;109.835404
119.028000;109.836199
119.066000;109.836994
119.104000;109.836994
119.142000;109.833814
119.180000;109.835404
119.218000;109.835404
119.256000;109.836199
119.294000;109.835404
119.332000;109.834609
119.370000;109.832239
119.409000;109.835404
119.447000;109.835404
119.485000;6.839929
119.523000;110.066921
119.561000;110.020977
119.599000;109.993243
119.637000;109.992463
119.675000;110.000383
119.713000;110.008303
119.751000;110.012263
119.789000;110.013852
119.828000;110.012263
119.866000;110.005933
119.904000;110.007508
119.942000;110.005933
119.980000;110.000383
120.018000;109.994038
120.056000;109.987708
120.094000;109.983749
120.132000;109.980569
120.170000;109.978199
120.209000;109.971074
120.247000;109.970279
120.285000;109.967114
120.323000;109.963154
120.361000;109.962359
120.399000;109.959179
120.437000;109.956015
120.475000;109.950465
120.513000;109.937010
120.551000;109.896602
120.589000;109.856193
120.627000;109.852233
120.665000;109.856193
120.704000;109.865703
120.742000;109.877582
120.780000;109.889477
120.818000;109.903727
120.856000;109.907686
120.894000;109.910071
120.932000;109.913236
120.970000;109.913236
121.008000;109.913236
121.047000;109.912441
121.085000;109.912441
121.123000;109.910866
121.161000;109.912441
121.199000;109.913236
121.237000;109.911661
121.275000;109.911661
121.313000;109.913236
121.351000;109.911661
121.389000;109.911661
121.427000;109.910866
121.465000;109.910866
121.504000;109.910071
121.542000;109.909276
121.580000;109.911661
121.619000;109.910866
121.657000;109.911661
121.695000;109.914031
121.733000;109.912441
121.771000;109.912441
121.809000;109.913236
121.847000;109.913236
121.885000;109.912441
121.923000;109.911661
121.961000;109.913236
121.999000;109.911661
122.037000;109.913236
122.076000;109.910866
122.114000;109.911661
122.152000;109.910071
122.190000;109.910866
122.228000;109.913236
122.266000;109.914031
122.304000;109.913236
122.342000;109.911661
122.380000;109.910071
122.418000;109.910866
122.456000;109.912441
122.494000;109.911661
122.532000;109.911661
122.571000;109.910866
122.609000;109.911661
122.647000;109.910071
122.685000;109.910866
122.723000;109.909276
122.761000;109.909276
122.799000;109.910866
122.837000;109.910866
122.875000;109.911661
122.913000;109.912441
122.951000;109.910866
122.990000;109.911661
123.028000;109.911661
123.066000;109.910866
123.104000;109.910866
123.142000;109.912441
123.180000;109.912441
123.218000;109.910071
123.256000;109.911661
123.294000;109.910866
123.332000;109.910071
123.370000;109.911661
123.411000;109.910866
123.449000;109.911661
123.487000;109.911661
123.525000;109.912441
123.564000;109.909276
123.602000;109.908481
123.640000;109.909276
123.678000;109.911661
123.716000;109.910866
123.754000;109.911661
123.792000;109.912441
123.830000;109.913236
123.868000;109.910866
123.907000;109.911661
123.945000;109.912441
123.983000;109.911661
124.021000;109.908481
124.059000;109.910071
124.097000;109.910866
124.135000;109.910866
124.173000;109.910071
124.211000;109.910071
124.249000;109.910071
124.287000;109.911661
124.325000;109.911661
124.363000;109.912441
124.401000;109.910071
124.439000;14.691136
124.477000;120.084033
124.515000;120.045214
124.553000;119.981047
124.591000;119.949353
124.630000;119.932718
124.668000;119.918454
124.706000;119.911329
124.744000;119.900245
124.782000;119.897065
124.820000;119.893900
124.858000;119.884390
124.896000;119.874101
124.934000;119.859836
124.972000;119.840037
125.010000;119.822608
125.048000;119.816263
125.086000;119.812303
125.125000;119.816263
125.163000;119.820223
125.201000;119.821813
125.239000;119.822608
125.277000;119.823387
125.315000;119.824182
125.353000;119.821813
125.391000;119.821813
125.429000;119.820223
125.467000;119.821018
125.506000;119.820223
125.544000;119.821018
125.582000;119.819428
125.620000;119.821813
125.658000;119.822608
125.696000;119.823387
125.734000;119.823387
125.772000;119.821813
125.810000;119.824977
125.848000;119.822608
125.886000;119.823387
125.924000;119.822608
125.962000;119.821813
126.001000;119.823387
126.039000;119.822608
126.077000;119.821018
126.115000;119.821813
126.153000;119.824182
126.191000;119.823387
126.229000;119.824182
126.267000;119.819428
126.305000;119.821018
126.343000;119.819428
126.381000;119.821018
126.419000;119.822608
126.457000;119.822608
126.496000;119.821018
126.535000;119.820223
126.573000;119.820223
126.611000;119.822608
126.649000;119.821018
126.687000;119.823387
126.725000;119.822608
126.763000;119.823387
126.801000;119.823387
126.839000;119.821813
126.877000;119.822608
126.915000;119.823387
126.953000;119.821813
126.992000;119.822608
127.030000;119.822608
127.068000;119.821018
127.106000;119.821018
127.144000;119.822608
127.182000;119.823387
127.220000;119.822608
127.258000;119.822608
127.296000;119.822608
127.334000;119.821018
127.373000;119.821018
127.411000;119.821813
127.449000;119.821018
127.487000;119.821018
127.525000;119.819428
127.563000;119.819428
127.601000;119.817853
127.639000;119.821018
127.677000;119.821018
127.715000;119.819428
127.753000;119.821018
127.791000;119.821813
127.829000;119.824182
127.867000;119.823387
127.906000;119.822608
127.944000;119.821813
127.982000;119.821018
128.020000;119.820223
128.058000;119.820223
128.096000;119.820223
128.134000;119.820223
128.172000;119.822608
128.210000;119.822608
128.248000;119.821018
128.287000;119.819428
128.325000;119.821813
128.363000;119.818648
128.401000;119.822608
128.439000;119.823387
128.477000;119.821018
128.515000;119.818648
128.553000;119.822608
128.591000;119.821018
128.629000;119.822608
128.667000;119.821813
128.706000;119.821018
128.744000;119.821018
128.782000;119.819428
128.820000;119.821018
128.858000;119.819428
128.896000;119.819428
128.934000;119.821018
128.972000;119.824182
129.010000;119.821018
129.048000;119.821018
129.086000;119.819428
129.124000;119.821018
129.162000;119.821813
129.201000;119.822608
129.239000;119.820223
129.277000;119.820223
129.315000;119.821813
129.353000;119.818648
129.391000;119.821018
129.429000;119.819428
129.467000;62.975699
129.505000;120.068373
129.543000;119.998671
129.582000;119.970937
129.620000;119.972527
129.658000;119.981242
129.696000;119.993916
129.734000;119.997876
129.772000;120.002631
129.810000;120.001836
129.848000;120.001041
129.886000;119.997876
129.924000;119.999466
129.962000;119.996286
130.000000;119.996286
130.039000;119.992326
130.077000;119.987571
130.115000;119.978857
130.153000;119.972527
130.191000;119.971732
130.229000;119.966182
130.267000;119.960647
130.305000;119.959852
130.343000;119.955893
130.381000;119.951138
130.419000;119.949548
130.457000;119.947178
130.495000;119.944793
130.533000;119.940833
130.572000;119.936078
130.610000;119.924199
130.648000;119.879050
130.686000;119.831517
130.724000;119.822008
130.762000;119.829927
130.800000;119.840232
130.838000;119.853701
130.876000;119.867156
130.914000;119.878255
130.952000;119.887765
130.990000;119.895685
131.028000;119.901235
131.066000;119.902810
131.104000;119.903605
131.142000;119.902015
131.180000;119.900440
131.219000;119.901235
131.257000;119.902810
131.295000;119.900440
131.333000;119.902015
131.371000;119.900440
131.409000;119.902810
131.447000;119.902015
131.485000;119.903605
131.523000;119.902810
131.561000;119.900440
131.599000;119.900440
131.637000;119.901235
131.675000;119.900440
131.713000;119.900440
131.751000;119.900440
131.789000;119.901235
131.828000;119.899645
131.866000;119.901235
131.904000;119.902015
131.942000;119.900440
131.980000;119.898055
132.018000;119.899645
132.056000;119.901235
132.094000;119.898055
132.132000;119.899645
132.170000;119.902015
132.208000;119.900440
132.246000;119.900440
132.285000;119.898850
132.323000;119.901235
132.361000;119.902015
132.399000;119.901235
132.437000;119.901235
132.475000;119.899645
132.513000;119.898850
132.551000;119.899645
132.589000;119.899645
132.627000;119.898055
132.665000;119.899645
132.704000;119.901235
132.742000;119.899645
132.780000;119.898850
132.818000;119.900440
132.856000;119.898055
132.894000;119.898850
132.932000;119.898850
132.970000;119.899645
133.008000;119.898850
133.046000;119.898850
133.084000;119.900440
133.122000;119.901235
133.160000;119.901235
133.199000;119.900440
133.237000;119.901235
133.275000;119.899645
133.313000;119.899645
133.351000;119.899645
133.389000;119.900440
133.427000;119.898850
133.465000;119.898055
133.503000;119.900440
133.541000;119.899645
133.580000;119.898850
133.618000;119.901235
133.656000;119.901235
133.694000;119.900440
133.732000;119.901235
133.770000;119.898850
133.808000;119.900440
133.846000;119.901235
133.884000;119.901235
133.922000;119.899645
133.960000;119.902015
133.998000;119.902810
134.036000;119.900440
134.074000;119.899645
134.112000;119.899645
134.150000;119.896480
134.188000;119.898850
134.226000;119.900440
134.265000;119.898850
134.303000;119.898055
134.341000;119.898850
134.379000;119.898850
134.417000;119.902015
134.455000;95.212486
134.494000;125.520058
134.532000;130.098205
134.570000;130.003934
134.608000;129.951646
134.646000;129.925502
134.684000;129.907277
134.722000;129.893823
134.760000;129.889068
134.798000;129.881928
134.836000;129.879558
134.874000;129.876394
134.912000;129.872434
134.951000;129.863719
134.989000;129.847085
135.027000;129.830435
135.065000;129.811431
135.103000;129.794797
135.141000;129.790837
135.179000;129.792412
135.217000;129.794002
135.255000;129.798756
135.293000;129.801126
135.331000;129.801126
135.369000;129.802716
135.407000;129.799551
135.446000;129.799551
135.483000;129.797166
135.521000;129.799551
135.560000;129.801126
135.598000;129.800331
135.636000;129.802716
135.674000;129.800331
135.712000;129.803511
135.750000;129.800331
135.788000;129.801921
135.826000;129.802716
135.864000;129.801921
135.903000;129.803511
135.941000;129.803511
135.979000;129.803511
136.017000;129.805086
136.055000;129.805881
136.093000;129.802716
136.131000;129.802716
136.169000;129.801921
136.208000;129.803511
136.246000;129.802716
136.284000;129.799551
136.322000;129.802716
136.360000;129.801126
136.398000;129.802716
136.436000;129.803511
136.474000;129.801921
136.512000;129.799551
136.550000;129.799551
136.588000;129.797166
136.627000;129.802716
136.665000;129.798756
136.703000;129.801126
136.741000;129.801921
136.779000;129.803511
136.817000;129.801921
136.855000;129.801126
136.893000;129.799551
136.931000;129.800331
136.969000;129.799551
137.008000;129.799551
137.046000;129.800331
137.084000;129.801126
137.122000;129.801126
137.160000;129.802716
137.198000;129.801126
137.236000;129.801921
137.274000;129.799551
137.312000;129.800331
137.350000;129.797166
137.388000;129.798756
137.426000;129.799551
137.465000;129.799551
137.503000;129.798756
137.541000;129.797961
137.579000;129.800331
137.617000;129.800331
137.655000;129.801921
137.693000;129.800331
137.731000;129.801126
137.769000;129.800331
137.808000;129.799551
137.846000;129.800331
137.884000;129.801126
137.922000;129.799551
137.960000;129.798756
137.998000;129.800331
138.036000;129.804306
138.074000;129.801921
138.112000;129.798756
138.150000;129.799551
138.188000;129.799551
138.226000;129.797961
138.264000;129.799551
138.303000;129.801921
138.341000;129.801126
138.379000;129.801921
138.417000;129.801126
138.455000;129.798756
138.493000;129.801126
138.531000;129.801126
138.569000;129.800331
138.607000;129.801126
138.645000;129.801921
138.683000;129.801126
138.721000;129.802716
138.760000;129.799551
138.798000;129.797166
138.836000;129.800331
138.874000;129.801921
138.912000;129.801126
138.950000;129.797166
138.988000;129.801126
139.026000;129.800331
139.064000;129.802716
139.103000;129.801921
139.141000;129.798756
139.179000;129.799551
139.217000;129.802716
139.255000;129.801126
139.293000;129.801921
139.331000;129.800331
139.369000;129.801921
139.408000;129.803511
139.446000;38.186859
139.484000;130.045287
139.522000;130.006484
139.560000;129.958156
139.598000;129.951016
139.636000;129.958951
139.674000;129.968445
139.712000;129.981120
139.750000;129.987464
139.788000;129.988259
139.826000;129.989834
139.864000;129.988259
139.902000;129.988259
139.940000;129.988259
139.979000;129.988259
140.017000;129.989054
140.055000;129.985875
140.093000;129.983505
140.131000;129.977160
140.169000;129.969240
140.208000;129.962115
140.246000;129.955771
140.284000;129.950236
140.322000;129.948646
140.360000;129.944686
140.398000;129.941521
140.436000;129.938341
140.474000;129.936766
140.513000;129.932806
140.551000;129.930422
140.589000;129.928052
140.627000;129.922502
140.665000;129.920132
140.703000;129.909827
140.741000;129.859129
140.779000;129.805266
140.817000;129.798126
140.855000;129.803676
140.893000;129.816351
140.931000;129.828230
140.969000;129.840110
141.008000;129.850414
141.046000;129.863884
141.084000;129.874969
141.122000;129.883683
141.160000;129.889233
141.198000;129.889233
141.236000;129.889233
141.274000;129.889233
141.312000;129.889233
141.350000;129.890823
141.388000;129.890028
141.426000;129.890028
141.465000;129.888438
141.503000;129.890028
141.541000;129.891603
141.579000;129.887643
141.617000;129.887643
141.655000;129.888438
141.693000;129.890028
141.731000;129.887643
141.769000;129.886848
141.807000;129.887643
141.845000;129.887643
141.883000;129.886848
141.921000;129.886848
141.959000;129.886848
141.998000;129.886068
142.036000;129.886848
142.074000;129.887643
142.112000;129.886068
142.150000;129.890028
142.188000;129.888438
142.226000;129.886848
142.264000;129.890823
142.302000;129.889233
142.340000;129.889233
142.378000;129.889233
142.416000;129.888438
142.455000;129.887643
142.493000;129.886068
142.531000;129.885273
142.569000;129.887643
142.607000;129.889233
142.645000;129.887643
142.683000;129.890028
142.721000;129.888438
142.759000;129.889233
142.797000;129.886848
142.835000;129.886848
142.873000;129.888438
142.912000;129.886848
142.950000;129.887643
142.988000;129.890028
143.026000;129.889233
143.064000;129.888438
143.102000;129.888438
143.140000;129.887643
143.178000;129.890028
143.217000;129.887643
143.255000;129.890028
143.293000;129.887643
143.331000;129.889233
143.369000;129.887643
143.407000;129.888438
143.445000;129.888438
143.483000;129.888438
143.521000;129.889233
143.559000;129.889233
143.597000;129.888438
143.635000;129.889233
143.673000;129.888438
143.712000;129.887643
143.750000;129.887643
143.788000;129.887643
143.826000;129.890823
143.864000;129.890028
143.902000;129.890823
143.940000;129.889233
143.978000;129.888438
144.016000;129.886848
144.054000;129.888438
144.092000;129.891603
144.130000;129.889233
144.168000;129.889233
144.207000;129.889233
144.245000;129.890823
144.283000;129.889233
144.321000;129.889233
144.359000;129.885273
144.397000;129.887643
144.435000;119.983612
144.473000;118.406944
144.511000;140.114718
144.550000;140.016486
144.588000;139.943604
144.626000;139.907155
144.664000;139.887356
144.702000;139.876257
144.740000;139.869132
144.778000;139.868337
144.816000;139.865967
144.854000;139.865967
144.892000;139.859622
144.930000;139.851702
144.968000;139.842988
145.006000;139.830313
145.044000;139.811294
145.082000;139.793085
145.120000;139.774860
145.158000;139.767736
145.196000;139.766941
145.234000;139.773270
145.272000;139.776450
145.310000;139.781190
145.349000;139.779615
145.387000;139.779615
145.425000;139.778820
145.463000;139.777230
145.501000;139.780410
145.539000;139.780410
145.577000;139.778820
145.615000;139.781190
145.653000;139.778025
145.691000;139.781190
145.729000;139.780410
145.767000;139.778820
145.805000;139.777230
145.843000;139.779615
145.881000;139.781190
145.920000;139.781985
145.958000;139.781190
145.996000;139.778820
146.034000;139.775655
146.072000;139.778025
146.110000;139.779615
146.148000;139.780410
146.186000;139.778820
146.224000;139.781985
146.262000;139.778820
146.300000;139.781985
146.338000;139.781190
146.377000;139.782780
146.415000;139.779615
146.453000;139.780410
146.491000;139.779615
146.529000;139.778820
146.567000;139.778820
146.605000;139.778820
146.644000;139.780410
146.682000;139.780410
146.720000;139.777230
146.758000;139.780410
146.797000;139.776450
146.835000;139.778025
146.873000;139.779615
146.911000;139.778025
146.949000;139.778820
146.987000;139.778025
147.025000;139.778820
147.063000;139.778820
147.101000;139.778820
147.139000;139.778820
147.177000;139.778820
147.216000;139.781985
147.254000;139.778820
147.292000;139.781190
147.330000;139.781985
147.368000;139.779615
147.406000;139.776450
147.444000;139.776450
147.482000;139.779615
147.520000;139.781190
147.558000;139.780410
147.596000;139.777230
147.634000;139.780410
147.672000;139.781190
147.710000;139.776450
147.748000;139.778025
147.786000;139.777230
147.824000;139.780410
147.862000;139.778820
147.900000;139.783575
147.938000;139.783575
147.977000;139.778820
148.015000;139.778820
148.053000;139.778025
148.091000;139.776450
148.129000;139.779615
148.167000;139.778820
148.205000;139.778025
148.243000;139.778025
148.281000;139.780410
148.319000;139.778025
148.357000;139.778025
148.395000;139.777230
148.433000;139.778820
148.471000;139.778025
148.510000;139.776450
148.548000;139.777230
148.586000;139.778025
148.624000;139.778025
148.662000;139.774065
148.700000;139.778025
148.738000;139.778820
148.776000;139.778025
148.814000;139.777230
148.852000;139.776450
148.890000;139.778820
148.928000;139.778025
148.966000;139.776450
149.004000;139.778820
149.042000;139.778820
149.080000;139.778820
149.118000;139.779615
149.156000;139.778025
149.194000;139.778025
149.233000;139.776450
149.271000;139.778025
149.309000;139.777230
149.347000;139.777230
149.385000;139.777230
149.423000;134.820482
149.461000;110.975572
149.499000;140.050715
149.537000;139.964363
149.575000;139.935054
149.613000;139.934259
149.651000;139.944564
149.689000;139.957239
149.727000;139.973078
149.765000;139.978628
149.803000;139.981793
149.841000;139.980998
149.880000;139.978628
149.918000;139.977038
149.956000;139.979408
149.994000;139.977833
150.032000;139.975448
150.070000;139.975448
150.108000;139.978628
150.146000;139.978628
150.184000;139.977833
150.222000;139.976243
150.260000;139.969118
150.299000;139.955649
150.337000;139.943769
150.375000;139.939809
150.413000;139.937424
150.451000;139.935054
150.489000;139.931889
150.527000;139.927135
150.565000;139.925545
150.603000;139.924750
150.641000;139.920790
150.679000;139.916830
150.718000;139.912075
150.756000;139.911280
150.794000;139.905745
150.832000;139.881176
150.870000;139.811474
150.908000;139.772655
150.946000;139.775025
150.984000;139.786905
151.022000;139.798799
151.060000;139.810679
151.098000;139.823353
151.137000;139.835233
151.175000;139.844743
151.213000;139.855032
151.251000;139.868502
151.289000;139.873257
151.327000;139.881176
151.365000;139.882766
151.403000;139.881971
151.441000;139.880396
151.479000;139.878806
151.518000;139.881176
151.556000;139.881971
151.594000;139.878806
151.632000;139.879601
151.670000;139.878806
151.708000;139.878011
151.746000;139.877217
151.784000;139.881176
151.822000;139.880396
151.860000;139.879601
151.899000;139.879601
151.937000;139.876422
151.975000;139.880396
152.013000;139.883561
152.051000;139.881176
152.089000;139.880396
152.127000;139.879601
152.165000;139.879601
152.203000;139.881971
152.241000;139.880396
152.279000;139.881176
152.318000;139.879601
152.356000;139.878806
152.394000;139.877217
152.432000;139.880396
152.470000;139.881176
152.508000;139.879601
152.546000;139.879601
152.584000;139.881176
152.622000;139.878806
152.660000;139.878806
152.698000;139.878806
152.736000;139.879601
152.774000;139.881176
152.813000;139.878806
152.851000;139.878806
152.889000;139.881176
152.927000;139.879601
152.965000;139.881176
153.003000;139.879601
153.041000;139.877217
153.079000;139.878806
153.117000;139.878011
153.155000;139.878806
153.193000;139.878011
153.231000;139.877217
153.270000;139.880396
153.308000;139.881971
153.346000;139.882766
153.384000;139.881971
153.422000;139.878011
153.460000;139.880396
153.498000;139.881176
153.536000;139.879601
153.574000;139.878806
153.612000;139.881176
153.650000;139.879601
153.688000;139.881176
153.727000;139.879601
153.765000;139.879601
153.803000;139.879601
153.841000;139.880396
153.879000;139.880396
153.917000;139.881176
153.955000;139.878806
153.993000;139.881176
154.031000;139.881176
154.069000;139.878011
154.108000;139.880396
154.146000;139.881176
154.184000;139.877217
154.222000;139.879601
154.260000;139.878806
154.298000;139.881176
154.336000;139.882766
154.374000;139.881176
154.412000;36.794445
154.450000;0.002265
154.488000;0.001470
154.526000;0.003060
154.564000;0.003060
154.602000;0.002265
154.640000;0.002265
154.678000;0.002265
154.717000;0.002265
154.755000;0.000675
154.793000;0.000675
154.831000;0.000120
154.869000;0.000120
154.907000;0.000675
154.945000;0.000675
154.983000;0.000120
155.021000;0.000675
155.059000;0.001470
155.097000;0.001470
155.135000;0.000675
155.173000;0.001470
155.211000;0.000675
155.250000;0.000675
155.288000;0.001470
155.326000;0.001470
155.364000;0.000675
155.402000;0.002265
155.440000;0.000675
155.479000;0.001470
155.517000;0.001470
155.555000;0.002265
155.593000;0.002265
155.631000;0.001470
155.669000;0.000675
155.707000;0.001470
155.745000;0.002265
155.783000;0.002265
155.821000;0.002265
155.860000;0.002265
155.898000;0.002265
155.936000;0.003060
155.974000;0.002265
156.012000;0.001470
156.051000;0.000675
156.089000;0.002265
156.127000;0.003060
156.165000;0.002265
156.203000;0.003060
156.241000;0.002265
156.279000;0.002265
156.317000;0.004635
156.355000;0.001470
156.393000;0.003060
156.431000;0.001470
156.469000;0.002265
156.507000;0.001470
156.545000;0.002265
156.583000;0.001470
156.621000;0.002265
156.659000;0.001470
156.697000;0.001470
156.735000;0.003060
156.774000;0.002265
156.812000;0.001470
156.850000;0.002265
156.888000;0.001470
156.926000;0.001470
156.964000;0.002265
157.002000;0.002265
157.040000;0.003060
157.078000;0.002265
157.116000;0.003840
157.154000;0.002265
157.192000;0.003840
157.231000;0.003060
157.269000;0.002265
157.307000;0.003060
157.345000;0.002265
157.383000;0.003840
157.421000;0.003840
157.459000;0.002265
157.497000;0.003060
157.535000;0.003060
157.573000;0.002265
157.611000;0.003840
157.649000;0.002265
157.687000;0.002265
157.725000;0.002265
157.763000;0.003060
157.801000;0.003840
157.839000;0.001470
157.877000;0.002265
157.916000;0.002265
157.954000;0.002265
157.992000;0.003840
158.030000;0.003060
158.068000;0.002265
158.106000;0.001470
158.144000;0.003060
158.182000;0.003060
158.220000;0.002265
158.258000;0.003060
158.296000;0.000675
158.334000;0.001470
158.372000;0.002265
158.410000;0.003060
158.448000;0.002265
158.487000;0.003060
158.525000;0.002265
158.563000;0.003060
158.601000;0.002265
158.639000;0.002265
158.677000;0.003060
158.715000;0.003060
158.753000;0.003060
158.791000;0.002265
158.829000;0.002265
158.867000;0.002265
